,accuracy,block,category,choice,correct_response,difficulty,image,rt,trial,participant,gender,age,hand,expName,date
0,1.0,learning,A,a,a,easy,patch1.png,1.05772590637,1.0,1,female,25,right,example_3,2019_Dec_04_1147
1,1.0,learning,A,a,a,easy,patch2.png,0.57523393631,2.0,1,female,25,right,example_3,2019_Dec_04_1147
2,1.0,learning,A,a,a,easy,patch4.png,0.952626943588,3.0,1,female,25,right,example_3,2019_Dec_04_1147
3,1.0,learning,B,b,b,easy,patch20.png,0.719610929489,4.0,1,female,25,right,example_3,2019_Dec_04_1147
4,0.0,learning,A,b,a,easy,patch5.png,0.723367929459,5.0,1,female,25,right,example_3,2019_Dec_04_1147
5,1.0,learning,B,b,b,easy,patch18.png,0.552800893784,6.0,1,female,25,right,example_3,2019_Dec_04_1147
6,1.0,learning,B,b,b,easy,patch19.png,0.643273830414,7.0,1,female,25,right,example_3,2019_Dec_04_1147
7,1.0,learning,A,a,a,easy,patch3.png,0.686403989792,8.0,1,female,25,right,example_3,2019_Dec_04_1147
8,1.0,learning,B,b,b,easy,patch16.png,0.8195540905,9.0,1,female,25,right,example_3,2019_Dec_04_1147
9,1.0,learning,B,b,b,easy,patch17.png,0.672753810883,10.0,1,female,25,right,example_3,2019_Dec_04_1147
10,1.0,learning,B,b,b,medium,patch22.png,0.653205871582,11.0,1,female,25,right,example_3,2019_Dec_04_1147
11,0.0,learning,A,b,a,medium,patch10.png,1.97229194641,12.0,1,female,25,right,example_3,2019_Dec_04_1147
12,1.0,learning,B,b,b,medium,patch24.png,0.669132947922,13.0,1,female,25,right,example_3,2019_Dec_04_1147
13,1.0,learning,B,b,b,medium,patch25.png,0.606523036957,14.0,1,female,25,right,example_3,2019_Dec_04_1147
14,1.0,learning,B,b,b,medium,patch23.png,0.569131135941,15.0,1,female,25,right,example_3,2019_Dec_04_1147
15,0.0,learning,A,b,a,medium,patch8.png,0.407649993896,16.0,1,female,25,right,example_3,2019_Dec_04_1147
16,1.0,learning,A,a,a,medium,patch9.png,0.802411079407,17.0,1,female,25,right,example_3,2019_Dec_04_1147
17,1.0,learning,A,a,a,medium,patch7.png,0.406240940094,18.0,1,female,25,right,example_3,2019_Dec_04_1147
18,1.0,learning,B,b,b,medium,patch21.png,1.00177383423,19.0,1,female,25,right,example_3,2019_Dec_04_1147
19,1.0,learning,A,a,a,medium,patch6.png,0.61757516861,20.0,1,female,25,right,example_3,2019_Dec_04_1147
20,1.0,learning,B,b,b,hard,patch26.png,0.68638086319,21.0,1,female,25,right,example_3,2019_Dec_04_1147
21,0.0,learning,A,b,a,hard,patch11.png,0.690342187881,22.0,1,female,25,right,example_3,2019_Dec_04_1147
22,1.0,learning,B,b,b,hard,patch27.png,0.718643188477,23.0,1,female,25,right,example_3,2019_Dec_04_1147
23,1.0,learning,A,a,a,hard,patch13.png,0.967605113983,24.0,1,female,25,right,example_3,2019_Dec_04_1147
24,0.0,learning,A,b,a,hard,patch15.png,0.620096206665,25.0,1,female,25,right,example_3,2019_Dec_04_1147
25,1.0,learning,A,a,a,hard,patch14.png,1.33326792717,26.0,1,female,25,right,example_3,2019_Dec_04_1147
26,1.0,learning,B,b,b,hard,patch28.png,0.653313875198,27.0,1,female,25,right,example_3,2019_Dec_04_1147
27,1.0,learning,B,b,b,hard,patch29.png,0.671312093735,28.0,1,female,25,right,example_3,2019_Dec_04_1147
28,1.0,learning,A,a,a,hard,patch12.png,0.752403020859,29.0,1,female,25,right,example_3,2019_Dec_04_1147
29,1.0,learning,B,b,b,hard,patch30.png,0.569020032883,30.0,1,female,25,right,example_3,2019_Dec_04_1147
30,1.0,transfer,A,a,a,medium,patch6.png,0.802855968475,1.0,1,female,25,right,example_3,2019_Dec_04_1147
31,1.0,transfer,B,b,b,medium,patch24.png,1.05247998238,2.0,1,female,25,right,example_3,2019_Dec_04_1147
32,1.0,transfer,A,a,a,easy,patch4.png,0.586189985275,3.0,1,female,25,right,example_3,2019_Dec_04_1147
33,1.0,transfer,B,b,b,medium,patch22.png,0.969025850296,4.0,1,female,25,right,example_3,2019_Dec_04_1147
34,1.0,transfer,B,b,b,easy,patch16.png,0.676506996155,5.0,1,female,25,right,example_3,2019_Dec_04_1147
35,1.0,transfer,B,b,b,hard,patch27.png,0.768750905991,6.0,1,female,25,right,example_3,2019_Dec_04_1147
36,1.0,transfer,B,b,b,medium,patch21.png,1.05775809288,7.0,1,female,25,right,example_3,2019_Dec_04_1147
37,1.0,transfer,B,b,b,easy,patch18.png,0.635744094849,8.0,1,female,25,right,example_3,2019_Dec_04_1147
38,1.0,transfer,B,b,b,hard,patch28.png,0.64315199852,9.0,1,female,25,right,example_3,2019_Dec_04_1147
39,1.0,transfer,A,a,a,medium,patch8.png,0.619858980179,10.0,1,female,25,right,example_3,2019_Dec_04_1147
40,1.0,transfer,B,b,b,medium,patch23.png,0.652631998062,11.0,1,female,25,right,example_3,2019_Dec_04_1147
41,1.0,transfer,B,b,b,hard,patch26.png,0.804156064987,12.0,1,female,25,right,example_3,2019_Dec_04_1147
42,1.0,transfer,A,a,a,hard,patch14.png,1.13579893112,13.0,1,female,25,right,example_3,2019_Dec_04_1147
43,1.0,transfer,B,b,b,hard,patch29.png,0.619606018066,14.0,1,female,25,right,example_3,2019_Dec_04_1147
44,1.0,transfer,A,a,a,easy,patch5.png,0.703103065491,15.0,1,female,25,right,example_3,2019_Dec_04_1147
45,1.0,transfer,A,a,a,easy,patch2.png,0.670205831528,16.0,1,female,25,right,example_3,2019_Dec_04_1147
46,1.0,transfer,A,a,a,hard,patch15.png,0.818140029907,17.0,1,female,25,right,example_3,2019_Dec_04_1147
47,1.0,transfer,A,a,a,medium,patch10.png,0.605835914612,18.0,1,female,25,right,example_3,2019_Dec_04_1147
48,1.0,transfer,A,a,a,easy,patch1.png,0.602313995361,19.0,1,female,25,right,example_3,2019_Dec_04_1147
49,1.0,transfer,B,b,b,easy,patch20.png,1.73649501801,20.0,1,female,25,right,example_3,2019_Dec_04_1147
50,1.0,transfer,B,b,b,easy,patch17.png,0.72358083725,21.0,1,female,25,right,example_3,2019_Dec_04_1147
51,1.0,transfer,A,a,a,easy,patch3.png,0.685492992401,22.0,1,female,25,right,example_3,2019_Dec_04_1147
52,1.0,transfer,B,b,b,medium,patch25.png,1.05212211609,23.0,1,female,25,right,example_3,2019_Dec_04_1147
53,1.0,transfer,A,a,a,hard,patch13.png,1.36961221695,24.0,1,female,25,right,example_3,2019_Dec_04_1147
54,1.0,transfer,B,b,b,hard,patch30.png,0.685252904892,25.0,1,female,25,right,example_3,2019_Dec_04_1147
55,1.0,transfer,B,b,b,easy,patch19.png,0.972679853439,26.0,1,female,25,right,example_3,2019_Dec_04_1147
56,1.0,transfer,A,a,a,hard,patch11.png,0.569643974304,27.0,1,female,25,right,example_3,2019_Dec_04_1147
57,1.0,transfer,A,a,a,medium,patch7.png,0.492770910263,28.0,1,female,25,right,example_3,2019_Dec_04_1147
58,1.0,transfer,A,a,a,medium,patch9.png,0.885726928711,29.0,1,female,25,right,example_3,2019_Dec_04_1147
59,1.0,transfer,A,a,a,hard,patch12.png,0.839697122574,30.0,1,female,25,right,example_3,2019_Dec_04_1147
